File: testes_pessoal/Raman/rGO.txt
3480.13	126.474
3477.58	170.105
3475.02	198.211
3472.46	198.579
3469.9	223.053
3467.34	221.421
3464.78	229
3462.22	250.421
3459.65	268.263
3457.08	251.421
3454.52	276.053
3451.95	286.684
3449.38	295.947
3446.81	294.316
3444.23	342.737
3441.66	325.947
3439.08	338.421
3436.51	347.632
3433.93	345.421
3431.35	360.895
3428.77	362.263
3426.18	384.263
3423.6	379.158
3421.01	385.526
3418.43	384.368
3415.84	394.421
3413.25	417.368
3410.66	397.105
3408.07	398.263
3405.47	420.105
3402.88	438.053
3400.28	432.263
3397.69	444.632
3395.09	450.158
3392.49	477.105
3389.89	468.895
3387.28	487.158
3384.68	495.579
3382.07	514.263
3379.47	527.632
3376.86	506.263
3374.25	528.211
3371.64	525.579
3369.02	536.789
3366.41	544.579
3363.8	543.895
3361.18	531.474
3358.56	564.947
3355.94	524.842
3353.32	551.053
3350.7	568.158
3348.08	559.421
3345.45	570.263
3342.83	571.316
3340.2	590.474
3337.57	603.737
3334.94	605.579
3332.31	632.947
3329.67	635.947
3327.04	642.211
3324.41	642.842
3321.77	649.421
3319.13	647.105
3316.49	681.474
3313.85	667.421
3311.21	663.684
3308.56	652.895
3305.92	668.421
3303.27	683.632
3300.62	684.421
3297.97	689.421
3295.32	695.947
3292.67	724.211
3290.02	730.526
3287.36	747
3284.71	763.368
3282.05	802.684
3279.39	843.789
3276.73	889.158
3274.07	935.789
3271.4	988.211
3268.74	1076.32
3266.07	1163.84
3263.41	1247.79
3260.74	1330.68
3258.07	1414.89
3255.4	1525.26
3252.72	1583
3250.05	1663.89
3247.37	1729.26
3244.7	1785.58
3242.02	1836.32
3239.34	1866.32
3236.66	1889.32
3233.97	1929.16
3231.29	1933.74
3228.6	1955
3225.92	1962.79
3223.23	2000.16
3220.54	2002.89
3217.85	2008.16
3215.16	2015.95
3212.46	2042.84
3209.77	2050.74
3207.07	2072.05
3204.37	2083
3201.67	2120
3198.97	2140
3196.27	2159.21
3193.57	2164
3190.86	2205.63
3188.15	2255.16
3185.45	2283.21
3182.74	2289.89
3180.03	2349
3177.31	2381.63
3174.6	2407.95
3171.89	2446.58
3169.17	2503.89
3166.45	2525.11
3163.73	2548
3161.01	2581.68
3158.29	2596.32
3155.57	2615.32
3152.84	2662.26
3150.12	2726.68
3147.39	2785.21
3144.66	2840.11
3141.93	2865.89
3139.2	2929.95
3136.47	2914.63
3133.73	2964.74
3131	2969.37
3128.26	3017.89
3125.52	3043.32
3122.78	3073.26
3120.04	3051.21
3117.29	3039.26
3114.55	3034.68
3111.8	3035.47
3109.06	3032.58
3106.31	3051.95
3103.56	3056.47
3100.81	3047.05
3098.05	3046.79
3095.3	3041.32
3092.54	3113.84
3089.79	3098
3087.03	3146.63
3084.27	3118.63
3081.51	3152.58
3078.74	3174.11
3075.98	3165.32
3073.21	3195.89
3070.45	3207.32
3067.68	3242.79
3064.91	3304.05
3062.14	3289.79
3059.36	3290.84
3056.59	3342.47
3053.81	3356.37
3051.04	3379.21
3048.26	3358.47
3045.48	3382.95
3042.7	3391.42
3039.91	3419.42
3037.13	3415.05
3034.34	3438.53
3031.56	3479.32
3028.77	3482.47
3025.98	3481.74
3023.19	3481.63
3020.39	3473.84
3017.6	3486.32
3014.8	3492.16
3012.01	3522.68
3009.21	3539.74
3006.41	3595.32
3003.6	3617.53
3000.8	3610.89
2998	3663.84
2995.19	3698.63
2992.38	3707.84
2989.58	3750.58
2986.77	3744.42
2983.95	3804.16
2981.14	3857.58
2978.33	3880
2975.51	3925.58
2972.69	3979.95
2969.87	3997.47
2967.05	4007.74
2964.23	3999.53
2961.41	4003.68
2958.58	4044.74
2955.76	4080.05
2952.93	4093.79
2950.1	4061.68
2947.27	4063.21
2944.44	4092.05
2941.61	4109.05
2938.77	4101.37
2935.94	4114.58
2933.1	4152.26
2930.26	4157.47
2927.42	4166.74
2924.58	4175.79
2921.73	4196.42
2918.89	4205.37
2916.04	4202.21
2913.19	4177.21
2910.34	4201.95
2907.49	4206.74
2904.64	4185
2901.79	4206.1
2898.93	4196.53
2896.07	4233.95
2893.22	4249.95
2890.36	4284.47
2887.5	4266.1
2884.63	4281.37
2881.77	4316.37
2878.9	4322.63
2876.04	4346.37
2873.17	4342.21
2870.3	4364.26
2867.43	4367.16
2864.55	4399.1
2861.68	4379.74
2858.8	4398.53
2855.93	4424.05
2853.05	4425.16
2850.17	4411.74
2847.29	4388.53
2844.4	4407.37
2841.52	4403.58
2838.63	4347.95
2835.74	4374.53
2832.86	4349.68
2829.97	4350.74
2827.07	4327.68
2824.18	4286.63
2821.29	4287.32
2818.39	4264.47
2815.49	4286.53
2812.59	4294.79
2809.69	4301.42
2806.79	4341.84
2803.89	4293.21
2800.98	4275.84
2798.07	4278.84
2795.16	4313.9
2792.25	4312.95
2789.34	4290.89
2786.43	4341.53
2783.52	4354.68
2780.6	4365.68
2777.68	4337.74
2774.77	4372.47
2771.85	4399.58
2768.92	4398
2766	4410.74
2763.08	4398.32
2760.15	4366.47
2757.22	4398.42
2754.29	4379.11
2751.36	4363.21
2748.43	4331.11
2745.5	4320.74
2742.56	4349.21
2739.63	4354.84
2736.69	4380.53
2733.75	4386.89
2730.81	4404.79
2727.86	4422.05
2724.92	4443.32
2721.98	4422.68
2719.03	4409.63
2716.08	4412.1
2713.13	4419.79
2710.18	4406
2707.23	4405.05
2704.27	4381
2701.31	4368
2698.36	4351.47
2695.4	4350.26
2692.44	4344.16
2689.48	4344.47
2686.51	4314.53
2683.55	4334.89
2680.58	4312.68
2677.61	4303.58
2674.64	4298.05
2671.67	4315.58
2668.7	4322.84
2665.73	4309.95
2662.75	4296.16
2659.77	4303.1
2656.79	4292.53
2653.81	4278.63
2650.83	4300.21
2647.85	4328.05
2644.86	4292.26
2641.88	4323
2638.89	4287.63
2635.9	4252.42
2632.91	4260.11
2629.92	4298.37
2626.92	4250.95
2623.93	4244.68
2620.93	4255.74
2617.93	4250.42
2614.93	4227.47
2611.93	4225.89
2608.93	4204.74
2605.93	4193.84
2602.92	4240.63
2599.91	4228.74
2596.9	4198.63
2593.89	4192.74
2590.88	4179.53
2587.87	4189.32
2584.85	4235.47
2581.83	4164.89
2578.82	4193.11
2575.8	4193.11
2572.78	4137.26
2569.75	4172.79
2566.73	4144.89
2563.7	4123.84
2560.68	4171.05
2557.65	4134.16
2554.62	4103.74
2551.58	4111.11
2548.55	4081.21
2545.52	4025.74
2542.48	4013.58
2539.44	3992.47
2536.4	3969.05
2533.36	3957.89
2530.32	3931.79
2527.27	3924.53
2524.23	3896.32
2521.18	3871.05
2518.13	3861.16
2515.08	3803.58
2512.03	3771.47
2508.98	3753.74
2505.92	3802.37
2502.86	3809.79
2499.81	3798.42
2496.75	3822.47
2493.69	3784.95
2490.62	3782
2487.56	3736.53
2484.49	3708.42
2481.43	3690.63
2478.36	3661.11
2475.29	3640.58
2472.21	3579.79
2469.14	3572.58
2466.06	3529.37
2462.99	3506.05
2459.91	3497.47
2456.83	3501
2453.75	3460.42
2450.67	3459.79
2447.58	3434.74
2444.49	3405.58
2441.41	3444.89
2438.32	3423.68
2435.23	3439.68
2432.13	3413.74
2429.04	3418
2425.95	3393.47
2422.85	3365.26
2419.75	3387.53
2416.65	3408.42
2413.55	3401.79
2410.45	3394
2407.34	3372.58
2404.23	3365.68
2401.13	3329.32
2398.02	3312.79
2394.91	3276.79
2391.79	3241.11
2388.68	3200.95
2385.56	3209.63
2382.45	3217.58
2379.33	3194.37
2376.21	3204.32
2373.08	3192.05
2369.96	3226.53
2366.84	3200.11
2363.71	3225.11
2360.58	3223.11
2357.45	3200.95
2354.32	3202.68
2351.19	3186.16
2348.05	3171.89
2344.91	3163.95
2341.78	3161.53
2338.64	3129.53
2335.5	3104.84
2332.35	3138.37
2329.21	3158.84
2326.06	3113.95
2322.92	3069.68
2319.77	3049.89
2316.62	3019.84
2313.47	2999.05
2310.31	2992.89
2307.16	2992.32
2304	2999.63
2300.84	2986.84
2297.68	3002.37
2294.52	2998.37
2291.36	2984.58
2288.19	2946
2285.03	2943.53
2281.86	2944.63
2278.69	2920.32
2275.52	2891.63
2272.34	2884.95
2269.17	2901.58
2265.99	2871.74
2262.82	2865.68
2259.64	2870.58
2256.46	2850.05
2253.27	2812.37
2250.09	2813.16
2246.9	2822.05
2243.72	2816.37
2240.53	2791.63
2237.34	2758.63
2234.15	2737.26
2230.95	2725.74
2227.76	2715.32
2224.56	2675.74
2221.36	2701.26
2218.16	2685.26
2214.96	2671.79
2211.76	2686.58
2208.55	2676.89
2205.35	2667.37
2202.14	2641.11
2198.93	2598.89
2195.72	2625.21
2192.51	2631.32
2189.29	2630.42
2186.08	2633.37
2182.86	2641.95
2179.64	2632.05
2176.42	2622.47
2173.2	2605.21
2169.97	2614.32
2166.74	2564.11
2163.52	2574.63
2160.29	2564.53
2157.06	2564.84
2153.83	2548.63
2150.59	2563.05
2147.36	2560.95
2144.12	2522.11
2140.88	2466.95
2137.64	2475.58
2134.4	2472.79
2131.16	2466.37
2127.91	2459.05
2124.66	2463.74
2121.41	2445.32
2118.17	2447.84
2114.91	2435.37
2111.66	2450.05
2108.41	2405
2105.15	2448.68
2101.89	2447.68
2098.63	2456.32
2095.37	2429.68
2092.11	2453.11
2088.84	2437.21
2085.57	2445.84
2082.31	2426.37
2079.04	2387.26
2075.77	2405.16
2072.49	2441.47
2069.22	2423.21
2065.94	2441.11
2062.66	2428.47
2059.38	2432.89
2056.1	2412.58
2052.82	2395
2049.54	2380.37
2046.25	2354
2042.96	2353.32
2039.67	2331.79
2036.38	2351.58
2033.09	2338.68
2029.8	2305.68
2026.5	2283.84
2023.2	2291.53
2019.9	2284.47
2016.6	2263.42
2013.3	2265.37
2010	2257.05
2006.69	2254.26
2003.38	2246.58
2000.07	2228.21
1996.76	2229.11
1993.45	2248.21
1990.14	2263.79
1986.82	2261.11
1983.5	2249.37
1980.18	2239.63
1976.86	2245
1973.54	2234.58
1970.22	2224.26
1966.89	2218.89
1963.56	2242.11
1960.24	2243.16
1956.9	2221.47
1953.57	2202.79
1950.24	2229.42
1946.9	2210.42
1943.57	2217.58
1940.23	2195.79
1936.89	2207.95
1933.54	2202.68
1930.2	2199.47
1926.85	2191.63
1923.51	2136.58
1920.16	2149.11
1916.81	2127.21
1913.45	2108.05
1910.1	2098.47
1906.74	2069.74
1903.39	2090.21
1900.03	2106.11
1896.67	2058.89
1893.31	2088.84
1889.94	2057.89
1886.57	2104.74
1883.21	2075.95
1879.84	2062.53
1876.47	2088.95
1873.1	2075.32
1869.72	2087.84
1866.35	2050.89
1862.97	2065.95
1859.59	2058.84
1856.21	2079.58
1852.83	2057.05
1849.44	2048.42
1846.06	2050.58
1842.67	2086.58
1839.28	2075.53
1835.89	2058.16
1832.49	2066.89
1829.1	2077.68
1825.7	2041.42
1822.31	2062.95
1818.91	2033.47
1815.51	2016.95
1812.1	2026
1808.7	1994
1805.29	1996.89
1801.88	2025.84
1798.47	2013.74
1795.06	1991.11
1791.65	2006.05
1788.24	2004.21
1784.82	2001.26
1781.4	2011.53
1777.98	2030.53
1774.56	2026.95
1771.14	2027.32
1767.71	2063.79
1764.29	2052
1760.86	2045.63
1757.43	2045.74
1754	2062.58
1750.56	2067.95
1747.13	2081.32
1743.69	2082.68
1740.25	2073.58
1736.81	2069.42
1733.37	2098.53
1729.93	2075
1726.48	2086.47
1723.03	2066.68
1719.58	2099.37
1716.13	2084.05
1712.68	2077.63
1709.23	2086.32
1705.77	2079.11
1702.31	2052.68
1698.85	2048.32
1695.39	2082.68
1691.93	2063.05
1688.47	2074.37
1685	2060.11
1681.53	2064.11
1678.06	2106.84
1674.59	2143.53
1671.12	2127.89
1667.65	2143
1664.17	2164.74
1660.69	2216.21
1657.21	2226.32
1653.73	2266.95
1650.25	2355.42
1646.76	2443
1643.27	2521.89
1639.79	2627.68
1636.3	2809.79
1632.8	2925.32
1629.31	3087.79
1625.81	3312.74
1622.32	3534.26
1618.82	3791.79
1615.32	4048.79
1611.82	4215.74
1608.31	4332.26
1604.81	4481.42
1601.3	4519.53
1597.79	4576.05
1594.28	4634.37
1590.76	4644.42
1587.25	4656.26
1583.73	4611.58
1580.22	4537.69
1576.7	4468.95
1573.17	4297.58
1569.65	4192.21
1566.13	4016.37
1562.6	3879.89
1559.07	3772.37
1555.54	3718.42
1552.01	3607.95
1548.47	3501.47
1544.94	3423.95
1541.4	3369.42
1537.86	3329.63
1534.32	3285.11
1530.78	3255.84
1527.23	3221.21
1523.69	3186
1520.14	3172.84
1516.59	3172.42
1513.04	3143.21
1509.49	3143.79
1505.93	3148.89
1502.38	3130.47
1498.82	3122.84
1495.26	3116.95
1491.69	3099.16
1488.13	3081.47
1484.57	3088.58
1481	3125.63
1477.43	3141.16
1473.86	3138.68
1470.29	3146.95
1466.71	3145.42
1463.14	3155.74
1459.56	3121.21
1455.98	3130.21
1452.4	3148.32
1448.81	3150.63
1445.23	3159.47
1441.64	3165.68
1438.05	3186.68
1434.46	3196.89
1430.87	3207.16
1427.28	3179.63
1423.68	3201.74
1420.08	3229.89
1416.49	3239.79
1412.88	3264.63
1409.28	3239.95
1405.68	3272.58
1402.07	3310.89
1398.46	3371.95
1394.85	3471.74
1391.24	3470.42
1387.63	3591.63
1384.01	3642.26
1380.4	3737.63
1376.78	3834.05
1373.16	3945.42
1369.53	4094.89
1365.91	4241.84
1362.28	4436.58
1358.66	4548.95
1355.03	4746.84
1351.39	4950.53
1347.76	5171.63
1344.13	5414.79
1340.49	5652.05
1336.85	5896.95
1333.21	6082.37
1329.57	6404.42
1325.92	6671.89
1322.28	6881.16
1318.63	7076.95
1314.98	7156.58
1311.33	7217.05
1307.68	7225.68
1304.02	7194.89
1300.37	7121.68
1296.71	6937.1
1293.05	6710.9
1289.38	6481.58
1285.72	6198.11
1282.05	5971.79
1278.39	5723.63
1274.72	5440.79
1271.05	5213.68
1267.37	5028.42
1263.7	4844.42
1260.02	4618.32
1256.34	4421.37
1252.66	4254.21
1248.98	4074.63
1245.3	3975.21
1241.61	3866.74
1237.93	3766.53
1234.24	3659.16
1230.54	3526.26
1226.85	3442.58
1223.16	3408.63
1219.46	3344.68
1215.76	3268.68
1212.06	3197.63
1208.36	3127.63
1204.66	3100.47
1200.95	3033.32
1197.24	2987.58
1193.53	2990.42
1189.82	2956.84
1186.11	2924.74
1182.39	2896.63
1178.68	2877.21
1174.96	2895
1171.24	2840.84
1167.52	2818.84
1163.79	2815.53
1160.07	2751.79
1156.34	2712.42
1152.61	2676.05
1148.88	2630.53
1145.14	2631.84
1141.41	2643.74
1137.67	2583.79
1133.93	2558.21
1130.19	2549.47
1126.45	2529.68
1122.7	2484.95
1118.96	2441.26
1115.21	2393.68
1111.46	2386.1
1107.71	2369.42
1103.95	2345.84
1100.2	2349.11
1096.44	2341.58
1092.68	2307.32
1088.92	2355.84
1085.16	2307.42
1081.39	2310.05
1077.63	2312
1073.86	2338
1070.09	2359.53
1066.32	2376.16
1062.54	2358.79
1058.77	2383.16
1054.99	2380
1051.21	2373.84
1047.43	2370.95
1043.64	2386.47
1039.86	2381.42
1036.07	2393.58
1032.28	2359.63
1028.49	2358.11
1024.7	2346.63
1020.9	2297.26
1017.11	2277.58
1013.31	2239.95
1009.51	2216.58
1005.71	2221.05
1001.9	2194.47
998.096	2181.63
994.289	2189.84
990.478	2217.79
986.667	2217.63
982.853	2237.21
979.039	2239.05
975.221	2265.16
971.402	2248.26
967.581	2200.68
963.758	2233.1
959.933	2207.05
956.107	2180.74
952.279	2185.89
948.448	2164.58
944.616	2179.05
940.781	2200.37
936.946	2182.21
933.108	2210.47
929.268	2219.89
925.426	2243.68
921.582	2237
917.737	2249.53
913.89	2247.37
910.04	2253.11
906.189	2231
902.336	2258.95
898.481	2220.32
894.624	2226.05
890.766	2203.95
886.904	2204.95
883.041	2186
879.178	2169.79
875.311	2181.89
871.443	2175.26
867.572	2183.42
863.7	2174.68
859.826	2172.58
855.95	2145.05
852.072	2170.79
848.193	2150.95
844.31	2142.74
840.427	2146.58
836.542	2177.68
832.654	2192.37
828.765	2209.68
824.874	2237.32
820.981	2225.95
817.085	2175.37
813.188	2193.89
809.289	2156.53
805.388	2178.26
801.486	2176.47
797.581	2169.11
793.674	2169.16
789.765	2192.05
785.855	2180.42
781.942	2188.47
778.028	2213.37
774.111	2187.79
770.194	2208.89
766.274	2235.74
762.351	2238.37
758.427	2239.58
754.501	2225.84
750.573	2256.58
746.644	2220.79
742.712	2216.53
738.778	2259.21
734.842	2267.47
730.905	2258.42
726.965	2263.84
723.024	2287.68
719.081	2252.95
715.135	2271.05
711.187	2235.16
707.238	2298.68
703.287	2295.05
699.335	2273.84
695.379	2285.32
691.422	2273.21
687.463	2271.95
683.502	2257.95
679.539	2286.37
675.575	2310.63
671.607	2271
667.639	2285.84
663.668	2305.84
659.696	2293.47
655.721	2332.26
651.744	2355.89
647.766	2354.37
643.785	2360.05
639.803	2386.26
635.818	2418.68
631.832	2406.32
627.844	2426.32
623.853	2398.68
619.862	2387.74
615.867	2398.37
611.871	2395.53
607.873	2411.63
603.872	2389.37
599.87	2407.21
595.867	2394.89
591.86	2385.58
587.852	2412.42
583.842	2422.53
579.83	2388.11
575.816	2430.05
571.801	2416.05
567.782	2408.32
563.762	2416.89
559.741	2468.32
555.717	2468.21
551.691	2479.95
547.663	2480.79
543.634	2520.05
539.602	2511.42
535.568	2532.26
531.532	2572.74
527.494	2656.11
523.455	3018.68
519.413	3337.42
515.37	2898.21
511.323	2616.05
507.276	2571.79
503.226	2547.63
499.175	2489
495.12	2530.68
491.065	2542.79
487.008	2547.11
482.948	2561.11
478.886	2572.74
474.823	2583.79
470.757	2606.79
466.689	2596.37
462.619	2585.32
458.547	2586.79
454.474	2598.47
450.398	2596.79
446.321	2582.68
442.241	2611.68
438.159	2604.37
434.076	2588.95
429.989	2599.26
425.902	2614.84
421.813	2604.42
417.721	2599.68
413.627	2596.21
409.531	2621.21
405.433	2631
401.334	2640.53
397.231	2645.21
393.128	2654.21
389.022	2677.95
384.914	2683.21
380.804	2693.84
376.692	2671.58
372.578	2676.53
368.462	2672.53
364.344	2668.58
360.224	2684.58
356.102	2649.05
351.978	2636.1
347.852	2649.68
343.724	2645.26
339.593	2633.74
335.461	2671.16
331.327	2670.58
327.191	2721
323.052	2679.53
318.911	2692.68
314.769	2702.26
310.624	2721.42
306.478	2718.16
302.33	2720.74
298.179	2727.68
294.026	2721.26
289.871	2683.53
285.715	2669.95
281.556	2681
277.395	2667.89
273.233	2649.42
269.067	2652.68
264.9	2688.84
260.731	2687.68
256.56	2672.79
252.387	2717.42
248.212	2733.95
244.035	2720.58
239.855	2776.32
235.674	2771.32
231.49	2809.26
227.305	2785.89
223.117	2795.21
218.928	2774.53
214.737	2786.42
210.543	2786.47
206.347	2795.32
202.149	2780.42
197.949	2762.79
193.747	2814.42
189.543	2784.68
185.336	2831
181.128	2846.84
176.919	2921.32
172.706	2957.26
168.491	3016.05
164.275	3081.47
160.057	3156.95
155.836	3223.11
151.614	3243.11
147.389	3384.68
143.161	3453.74
138.932	3509.95
134.701	3568.26
130.469	3741.84
126.234	3833.37
121.996	3931.47
117.757	4033.68
113.515	4253.32
109.271	4323.37
105.026	4441.05
100.778	4630.53
96.5279	4696.26
92.2767	4752
88.0227	4222.42
83.7657	3266.05
79.5079	2095.21
75.2472	1154.37
70.9856	596.368
66.7202	281.895
62.4538	157.895
58.1855	129.158
53.9144	107.053
51.7782	98.1579