File: testes_pessoal/FTIR/rGO.txt
RGO_X,RGO_Y
399.452,47.6074
402.326,47.1653
405.2,48.291
408.074,48.5376
410.947,48.6954
413.821,48.7069
416.695,48.7117
419.569,47.897
422.442,47.8793
425.316,49.1598
428.19,49.0122
431.064,47.9679
433.937,48.8825
436.811,49.4245
439.685,49.4295
442.559,48.3408
445.432,48.895
448.306,48.3084
451.18,48.3537
454.054,48.6742
456.927,48.5185
459.801,49.0614
462.675,48.8584
465.549,48.7856
468.422,48.7419
471.296,49.0202
474.17,48.8703
477.044,48.688
479.917,48.9553
482.791,49.2734
485.665,49.1259
488.539,48.8533
491.412,49.198
494.286,49.4438
497.16,49.3358
500.034,49.1249
502.908,49.5699
505.781,49.4262
508.655,49.4423
511.529,49.4657
514.403,49.2445
517.276,49.4747
520.15,49.5958
523.024,49.6142
525.898,49.5095
528.771,50.1095
531.645,50.0218
534.519,50.1772
537.393,50.0563
540.266,50.0079
543.14,50.1475
546.014,50.1297
548.888,50.1176
551.761,50.1865
554.635,50.2604
557.509,50.391
560.383,50.3574
563.256,50.4257
566.13,50.4252
569.004,50.4098
571.878,50.618
574.751,50.4322
577.625,50.6692
580.499,50.6069
583.373,50.6629
586.246,50.6974
589.12,50.6695
591.994,50.7377
594.868,50.971
597.742,51.1206
600.615,51.0446
603.489,51.2341
606.363,51.3997
609.237,51.4729
612.11,51.4955
614.984,51.5363
617.858,51.6289
620.732,51.71
623.605,51.8296
626.479,51.8846
629.353,51.9609
632.227,51.9959
635.1,52.0304
637.974,52.1589
640.848,52.2424
643.722,52.2524
646.595,52.2596
649.469,52.3618
652.343,52.432
655.217,52.447
658.09,52.494
660.964,52.5702
663.838,52.6758
666.712,52.5937
669.585,52.8567
672.459,52.8495
675.333,52.8758
678.207,52.9666
681.08,53.0301
683.954,53.1173
686.828,53.1376
689.702,53.2662
692.576,53.3932
695.449,53.4864
698.323,53.5946
701.197,53.6803
704.071,53.7233
706.944,53.7766
709.818,53.8194
712.692,53.908
715.566,53.9658
718.439,54.0593
721.313,54.1057
724.187,54.1918
727.061,54.2487
729.934,54.3131
732.808,54.3567
735.682,54.3887
738.556,54.4332
741.429,54.4876
744.303,54.4885
747.177,54.446
750.051,54.4282
752.924,54.4378
755.798,54.4006
758.672,54.3802
761.546,54.3323
764.419,54.3142
767.293,54.3615
770.167,54.4145
773.041,54.5579
775.914,54.6685
778.788,54.7938
781.662,55.0084
784.536,55.2925
787.409,55.5219
790.283,55.6981
793.157,55.7848
796.031,55.8658
798.905,55.9152
801.778,55.9226
804.652,55.9885
807.526,56.0322
810.4,56.0312
813.273,56.0834
816.147,56.1351
819.021,56.2345
821.895,56.3544
824.768,56.4399
827.642,56.5171
830.516,56.6265
833.39,56.7171
836.263,56.7468
839.137,56.7334
842.011,56.7306
844.885,56.6748
847.758,56.5952
850.632,56.5847
853.506,56.5366
856.38,56.4098
859.253,56.3491
862.127,56.2305
865.001,56.175
867.875,56.0867
870.748,55.9981
873.622,55.939
876.496,55.9395
879.37,55.9404
882.243,55.8223
885.117,55.9065
887.991,56.0507
890.865,56.0228
893.739,55.9137
896.612,55.8017
899.486,55.6495
902.36,55.5318
905.234,55.3811
908.107,55.264
910.981,55.1419
913.855,55.0081
916.729,54.8889
919.602,54.797
922.476,54.6412
925.35,54.5217
928.224,54.3513
931.097,54.2463
933.971,54.1218
936.845,54.05
939.719,53.9736
942.592,53.9049
945.466,53.8338
948.34,53.7369
951.214,53.6654
954.087,53.6005
956.961,53.506
959.835,53.3442
962.709,53.153
965.582,52.9251
968.456,52.7905
971.33,52.6947
974.204,52.5894
977.077,52.5048
979.951,52.4314
982.825,52.3108
985.699,52.2576
988.573,52.1885
991.446,52.0499
994.32,51.9226
997.194,51.7762
1000.07,51.6803
1002.94,51.6517
1005.82,51.5577
1008.69,51.475
1011.56,51.3588
1014.44,51.2815
1017.31,51.1682
1020.18,51.1285
1023.06,51.0984
1025.93,51.1336
1028.81,51.172
1031.68,51.2534
1034.55,51.3998
1037.43,51.5735
1040.3,51.8184
1043.17,51.9739
1046.05,52.2082
1048.92,52.4326
1051.8,52.6419
1054.67,52.8328
1057.54,53.0673
1060.42,53.2196
1063.29,53.4392
1066.16,53.6589
1069.04,53.8637
1071.91,54.0263
1074.79,54.1733
1077.66,54.3562
1080.53,54.5084
1083.41,54.6457
1086.28,54.7937
1089.15,54.9428
1092.03,55.1017
1094.9,55.2337
1097.78,55.3313
1100.65,55.4328
1103.52,55.5623
1106.4,55.6499
1109.27,55.7247
1112.14,55.7941
1115.02,55.9249
1117.89,56.1071
1120.77,56.2812
1123.64,56.4749
1126.51,56.703
1129.39,56.9234
1132.26,57.1263
1135.13,57.3196
1138.01,57.5055
1140.88,57.697
1143.76,57.9021
1146.63,58.1025
1149.5,58.2878
1152.38,58.4441
1155.25,58.5638
1158.12,58.6779
1161,58.7707
1163.87,58.8809
1166.75,58.9687
1169.62,59.012
1172.49,59.0138
1175.37,59.0034
1178.24,58.9446
1181.11,58.8879
1183.99,58.8938
1186.86,58.875
1189.74,58.8754
1192.61,58.9155
1195.48,58.9506
1198.36,58.9797
1201.23,59.0527
1204.1,59.0962
1206.98,59.1875
1209.85,59.2925
1212.73,59.4585
1215.6,59.6472
1218.47,59.8442
1221.35,60.0229
1224.22,60.2059
1227.09,60.4245
1229.97,60.6656
1232.84,60.8851
1235.72,61.123
1238.59,61.36
1241.46,61.5886
1244.34,61.786
1247.21,61.9655
1250.08,62.1585
1252.96,62.3264
1255.83,62.4845
1258.71,62.5534
1261.58,62.6793
1264.45,62.7781
1267.33,62.8463
1270.2,62.8818
1273.07,62.9765
1275.95,63.0687
1278.82,63.1142
1281.7,63.1853
1284.57,63.286
1287.44,63.2792
1290.32,63.3818
1293.19,63.4325
1296.06,63.4304
1298.94,63.4751
1301.81,63.4336
1304.69,63.3546
1307.56,63.1849
1310.43,62.9636
1313.31,62.6903
1316.18,62.7192
1319.05,62.9546
1321.93,63.3909
1324.8,63.6841
1327.68,63.9088
1330.55,64.054
1333.42,64.1839
1336.3,64.127
1339.17,63.9714
1342.04,64.4038
1344.92,64.4441
1347.79,64.4825
1350.67,64.5688
1353.54,64.5723
1356.41,64.6558
1359.29,64.5948
1362.16,64.4642
1365.03,65.0245
1367.91,64.9593
1370.78,65.0774
1373.66,64.9869
1376.53,65.2408
1379.4,65.2098
1382.28,65.1737
1385.15,65.086
1388.02,65.2188
1390.9,65.1894
1393.77,64.9258
1396.65,65.1926
1399.52,65.288
1402.39,65.3082
1405.27,65.3835
1408.14,65.4929
1411.01,65.5186
1413.89,65.5759
1416.76,65.369
1419.64,65.8938
1422.51,65.7623
1425.38,66.0625
1428.26,65.861
1431.13,66.1482
1434,66.0496
1436.88,66.465
1439.75,66.5951
1442.63,66.6576
1445.5,66.7082
1448.37,66.9964
1451.25,66.9553
1454.12,66.8705
1456.99,66.8463
1459.87,67.6827
1462.74,67.3462
1465.62,68.007
1468.49,68.1436
1471.36,67.9687
1474.24,69.0822
1477.11,69.33
1479.98,69.3144
1482.86,69.7212
1485.73,69.5881
1488.61,69.5805
1491.48,70.0031
1494.35,69.59
1497.23,69.7217
1500.1,69.6345
1502.98,69.3434
1505.85,68.8424
1508.72,69.3795
1511.6,69.0665
1514.47,68.8249
1517.34,68.7858
1520.22,68.4168
1523.09,68.922
1525.97,68.3491
1528.84,68.2954
1531.71,67.763
1534.59,68.2397
1537.46,67.1537
1540.33,67.3219
1543.21,67.0724
1546.08,67.0771
1548.96,66.2357
1551.83,66.1622
1554.7,65.7686
1557.58,64.8869
1560.45,66.8473
1563.32,64.8639
1566.2,64.843
1569.07,64.1857
1571.95,64.814
1574.82,63.9682
1577.69,64.6813
1580.57,64.0939
1583.44,64.0717
1586.31,64.0272
1589.19,63.946
1592.06,63.8743
1594.94,63.772
1597.81,63.6893
1600.68,63.4557
1603.56,63.2629
1606.43,62.9941
1609.3,62.8374
1612.18,62.6841
1615.05,62.1206
1617.93,63.1215
1620.8,62.2811
1623.67,62.7254
1626.55,62.6786
1629.42,63.1628
1632.29,62.8354
1635.17,62.7066
1638.04,63.8632
1640.92,63.6386
1643.79,63.4207
1646.66,63.4926
1649.54,64.3582
1652.41,63.2977
1655.28,65.65
1658.16,64.6149
1661.03,64.5707
1663.91,65.2421
1666.78,64.6982
1669.65,64.8619
1672.53,65.179
1675.4,65.1666
1678.27,64.853
1681.15,64.6245
1684.02,64.2455
1686.9,64.9993
1689.77,64.5735
1692.64,64.5054
1695.52,63.9719
1698.39,64.054
1701.26,65.7685
1704.14,63.7908
1707.01,64.6876
1709.89,64.2624
1712.76,64.0239
1715.63,63.8864
1718.51,64.9654
1721.38,64.7467
1724.25,64.8378
1727.13,64.8866
1730,64.9856
1732.88,64.816
1735.75,66.4163
1738.62,65.5339
1741.5,66.1988
1744.37,66.2983
1747.24,66.3835
1750.12,66.8108
1752.99,67.5192
1755.87,67.3128
1758.74,67.862
1761.61,67.954
1764.49,68.5105
1767.36,68.4732
1770.23,68.7817
1773.11,69.8211
1775.98,69.7899
1778.86,70.0656
1781.73,70.8529
1784.6,71.1665
1787.48,71.8923
1790.35,72.0512
1793.22,73.4934
1796.1,73.7199
1798.97,74.4019
1801.85,75.2707
1804.72,76.0047
1807.59,76.3319
1810.47,76.6903
1813.34,77.1794
1816.21,77.3626
1819.09,77.4403
1821.96,77.514
1824.84,77.5273
1827.71,77.565
1830.58,77.6293
1833.46,77.5919
1836.33,77.6664
1839.2,77.6669
1842.08,77.3328
1844.95,77.6858
1847.83,77.4671
1850.7,77.4859
1853.57,77.3006
1856.45,77.3135
1859.32,77.4082
1862.19,77.3284
1865.07,77.1185
1867.94,76.9419
1870.82,77.3538
1873.69,77.089
1876.56,77.0148
1879.44,77.0333
1882.31,77.2
1885.18,77.0114
1888.06,76.803
1890.93,77.1101
1893.81,76.9563
1896.68,76.9323
1899.55,76.8842
1902.43,76.9275
1905.3,76.9044
1908.17,76.7858
1911.05,76.8334
1913.92,76.9188
1916.8,76.772
1919.67,76.8362
1922.54,76.5998
1925.42,77.01
1928.29,76.9328
1931.16,76.9342
1934.04,76.9039
1936.91,76.9526
1939.79,76.9322
1942.66,76.8981
1945.53,76.9421
1948.41,77.1423
1951.28,76.9348
1954.15,77.0324
1957.03,76.9636
1959.9,77.5042
1962.78,77.4308
1965.65,77.1207
1968.52,77.1437
1971.4,77.3955
1974.27,77.4202
1977.15,77.3881
1980.02,77.3661
1982.89,77.3155
1985.77,77.2783
1988.64,76.8458
1991.51,77.0531
1994.39,77.2013
1997.26,76.9236
2000.14,76.8212
2003.01,77.0319
2005.88,77.416
2008.76,76.8359
2011.63,76.6321
2014.5,77.1281
2017.38,77.2942
2020.25,77.0455
2023.13,76.707
2026,77.0468
2028.87,77.2026
2031.75,76.9904
2034.62,76.8894
2037.49,76.967
2040.37,76.9596
2043.24,76.7912
2046.12,76.7176
2048.99,76.8597
2051.86,76.8541
2054.74,76.8088
2057.61,76.6156
2060.48,76.5472
2063.36,76.4821
2066.23,76.4435
2069.11,76.4201
2071.98,76.588
2074.85,76.5516
2077.73,76.4192
2080.6,76.4412
2083.47,76.5688
2086.35,76.6746
2089.22,76.4826
2092.1,76.5126
2094.97,76.6163
2097.84,76.6423
2100.72,76.5208
2103.59,76.5616
2106.46,76.7333
2109.34,76.8246
2112.21,76.6447
2115.09,76.6397
2117.96,76.7646
2120.83,76.7103
2123.71,76.6556
2126.58,76.8154
2129.45,76.8122
2132.33,76.817
2135.2,76.7918
2138.08,76.8958
2140.95,77.0186
2143.82,77.0644
2146.7,77.0024
2149.57,77.1578
2152.44,77.5472
2155.32,77.4817
2158.19,77.7877
2161.07,77.5487
2163.94,77.8359
2166.81,77.3055
2169.69,77.0052
2172.56,77.3458
2175.43,77.2445
2178.31,77.1172
2181.18,76.9675
2184.06,76.823
2186.93,76.9361
2189.8,76.8072
2192.68,76.7138
2195.55,76.8551
2198.42,77.028
2201.3,76.8227
2204.17,76.6594
2207.05,76.7026
2209.92,76.8652
2212.79,76.6615
2215.67,76.6296
2218.54,76.8388
2221.41,76.789
2224.29,76.6181
2227.16,76.6388
2230.04,76.702
2232.91,76.6038
2235.78,76.5759
2238.66,76.4526
2241.53,76.5226
2244.4,76.5601
2247.28,76.4919
2250.15,76.3007
2253.03,76.4259
2255.9,76.6077
2258.77,76.4771
2261.65,76.5573
2264.52,76.6219
2267.39,76.6952
2270.27,76.6979
2273.14,76.6384
2276.02,76.6148
2278.89,76.6251
2281.76,76.4695
2284.64,76.4249
2287.51,76.3303
2290.38,76.2435
2293.26,76.098
2296.13,76.0611
2299.01,75.878
2301.88,75.8084
2304.75,75.5803
2307.63,75.4123
2310.5,75.3196
2313.37,75.2184
2316.25,75.1014
2319.12,74.9177
2322,74.6423
2324.87,74.3155
2327.74,74.1511
2330.62,74.2654
2333.49,74.5108
2336.36,74.5855
2339.24,74.5673
2342.11,74.5713
2344.99,74.5791
2347.86,74.6394
2350.73,74.0114
2353.61,74.332
2356.48,74.5467
2359.35,74.7697
2362.23,74.9087
2365.1,75.2054
2367.98,75.6187
2370.85,75.704
2373.72,75.6742
2376.6,75.746
2379.47,75.7528
2382.34,75.8972
2385.22,75.9872
2388.09,76.0872
2390.97,76.0652
2393.84,76.0314
2396.71,75.9901
2399.59,75.9816
2402.46,75.9416
2405.33,75.9485
2408.21,75.9817
2411.08,75.9746
2413.96,75.9539
2416.83,75.9534
2419.7,75.999
2422.58,76.0123
2425.45,76.0106
2428.32,75.9958
2431.2,75.983
2434.07,76.0314
2436.95,76.0046
2439.82,75.9111
2442.69,75.9192
2445.57,75.9508
2448.44,75.9
2451.31,75.8596
2454.19,75.857
2457.06,75.8856
2459.94,75.8066
2462.81,75.819
2465.68,75.8464
2468.56,75.825
2471.43,75.7909
2474.31,75.7487
2477.18,75.7832
2480.05,75.7822
2482.93,75.742
2485.8,75.7501
2488.67,75.7798
2491.55,75.7402
2494.42,75.7508
2497.3,75.7285
2500.17,75.7287
2503.04,75.7382
2505.92,75.7005
2508.79,75.7167
2511.66,75.696
2514.54,75.6898
2517.41,75.6377
2520.29,75.6502
2523.16,75.6729
2526.03,75.6745
2528.91,75.6079
2531.78,75.6509
2534.65,75.6228
2537.53,75.6233
2540.4,75.5808
2543.28,75.6225
2546.15,75.6307
2549.02,75.6191
2551.9,75.5724
2554.77,75.5802
2557.64,75.6231
2560.52,75.5895
2563.39,75.5795
2566.27,75.5725
2569.14,75.6046
2572.01,75.589
2574.89,75.5527
2577.76,75.5562
2580.63,75.548
2583.51,75.5362
2586.38,75.49
2589.26,75.5326
2592.13,75.5246
2595,75.4949
2597.88,75.477
2600.75,75.4624
2603.62,75.4844
2606.5,75.4754
2609.37,75.4346
2612.25,75.4424
2615.12,75.4469
2617.99,75.4386
2620.87,75.4346
2623.74,75.4388
2626.61,75.4284
2629.49,75.4336
2632.36,75.4315
2635.24,75.477
2638.11,75.4554
2640.98,75.4518
2643.86,75.4562
2646.73,75.4913
2649.6,75.4741
2652.48,75.4709
2655.35,75.4875
2658.23,75.4896
2661.1,75.4995
2663.97,75.4905
2666.85,75.4863
2669.72,75.494
2672.59,75.4983
2675.47,75.5016
2678.34,75.5163
2681.22,75.5234
2684.09,75.5258
2686.96,75.5145
2689.84,75.5466
2692.71,75.5664
2695.58,75.5478
2698.46,75.542
2701.33,75.5385
2704.21,75.551
2707.08,75.5377
2709.95,75.5297
2712.83,75.5046
2715.7,75.5164
2718.57,75.5008
2721.45,75.4962
2724.32,75.4996
2727.2,75.4964
2730.07,75.4514
2732.94,75.4422
2735.82,75.4386
2738.69,75.4386
2741.56,75.429
2744.44,75.3969
2747.31,75.375
2750.19,75.3798
2753.06,75.3635
2755.93,75.3335
2758.81,75.3323
2761.68,75.3219
2764.55,75.2878
2767.43,75.2541
2770.3,75.2432
2773.18,75.2399
2776.05,75.2046
2778.92,75.1821
2781.8,75.1544
2784.67,75.1417
2787.54,75.1199
2790.42,75.0957
2793.29,75.0712
2796.17,75.0555
2799.04,75.0273
2801.91,74.9847
2804.79,74.9542
2807.66,74.9462
2810.53,74.9129
2813.41,74.8895
2816.28,74.8682
2819.16,74.8362
2822.03,74.7867
2824.9,74.7456
2827.78,74.7476
2830.65,74.6901
2833.52,74.6166
2836.4,74.5521
2839.27,74.4822
2842.15,74.3942
2845.02,74.2506
2847.89,74.1427
2850.77,74.0522
2853.64,74.0162
2856.51,74.0822
2859.39,74.1365
2862.26,74.1533
2865.14,74.1422
2868.01,74.0959
2870.88,74.0508
2873.76,74.0353
2876.63,73.9892
2879.5,73.9324
2882.38,73.9063
2885.25,73.8311
2888.13,73.7665
2891,73.6861
2893.87,73.6438
2896.75,73.6201
2899.62,73.5525
2902.49,73.5021
2905.37,73.4909
2908.24,73.4635
2911.12,73.3993
2913.99,73.3205
2916.86,73.2288
2919.74,73.1816
2922.61,73.1426
2925.48,73.1911
2928.36,73.2258
2931.23,73.2889
2934.11,73.3628
2936.98,73.4466
2939.85,73.5122
2942.73,73.5357
2945.6,73.552
2948.47,73.5455
2951.35,73.5388
2954.22,73.5705
2957.1,73.5956
2959.97,73.6481
2962.84,73.7254
2965.72,73.7716
2968.59,73.8456
2971.47,73.9
2974.34,73.9403
2977.21,73.9958
2980.09,74.0158
2982.96,74.0627
2985.83,74.09
2988.71,74.0922
2991.58,74.1088
2994.46,74.1166
2997.33,74.1488
3000.2,74.1272
3003.08,74.1122
3005.95,74.1097
3008.82,74.0951
3011.7,74.0707
3014.57,74.0848
3017.45,74.047
3020.32,74.0556
3023.19,74.0075
3026.07,73.9966
3028.94,73.9554
3031.81,73.9262
3034.69,73.8941
3037.56,73.855
3040.44,73.8381
3043.31,73.8386
3046.18,73.7813
3049.06,73.7069
3051.93,73.6662
3054.8,73.591
3057.68,73.553
3060.55,73.5143
3063.43,73.4553
3066.3,73.411
3069.17,73.3939
3072.05,73.3191
3074.92,73.2588
3077.79,73.2205
3080.67,73.1599
3083.54,73.1054
3086.42,73.0801
3089.29,73.0401
3092.16,72.9745
3095.04,72.8756
3097.91,72.8925
3100.78,72.7807
3103.66,72.7722
3106.53,72.6961
3109.41,72.6626
3112.28,72.6554
3115.15,72.5359
3118.03,72.4867
3120.9,72.4482
3123.77,72.421
3126.65,72.3424
3129.52,72.3543
3132.4,72.2833
3135.27,72.2561
3138.14,72.1943
3141.02,72.1646
3143.89,72.1156
3146.76,72.0548
3149.64,72.0352
3152.51,72.01
3155.39,71.99
3158.26,71.9345
3161.13,71.8783
3164.01,71.8721
3166.88,71.817
3169.75,71.7828
3172.63,71.7415
3175.5,71.7024
3178.38,71.6649
3181.25,71.6949
3184.12,71.6001
3187,71.5837
3189.87,71.5677
3192.74,71.516
3195.62,71.4481
3198.49,71.4243
3201.37,71.4483
3204.24,71.3864
3207.11,71.3557
3209.99,71.2947
3212.86,71.3021
3215.73,71.266
3218.61,71.2152
3221.48,71.2364
3224.36,71.2021
3227.23,71.1598
3230.1,71.1714
3232.98,71.1764
3235.85,71.1598
3238.72,71.1595
3241.6,71.1177
3244.47,71.1077
3247.35,71.1332
3250.22,71.1117
3253.09,71.0307
3255.97,71.1041
3258.84,71.1051
3261.71,71.1032
3264.59,71.0647
3267.46,71.0804
3270.34,71.0844
3273.21,71.0707
3276.08,71.0752
3278.96,71.08
3281.83,71.0619
3284.7,71.0526
3287.58,71.0579
3290.45,71.0848
3293.33,71.0681
3296.2,71.0718
3299.07,71.0817
3301.95,71.0859
3304.82,71.0908
3307.69,71.043
3310.57,71.0999
3313.44,71.0741
3316.32,71.0745
3319.19,71.0529
3322.06,71.0484
3324.94,71.0395
3327.81,71.0424
3330.68,71.0425
3333.56,71.0095
3336.43,70.998
3339.31,71.0313
3342.18,71.0158
3345.05,71.0607
3347.93,71.0962
3350.8,71.0824
3353.67,71.0656
3356.55,71.0542
3359.42,71.1159
3362.3,71.1167
3365.17,71.0883
3368.04,71.1683
3370.92,71.2491
3373.79,71.254
3376.66,71.2675
3379.54,71.3207
3382.41,71.3674
3385.29,71.3664
3388.16,71.4403
3391.03,71.4918
3393.91,71.5877
3396.78,71.5701
3399.65,71.7004
3402.53,71.7535
3405.4,71.8194
3408.28,71.9216
3411.15,72.0107
3414.02,72.1198
3416.9,72.201
3419.77,72.1635
3422.64,72.3339
3425.52,72.482
3428.39,72.5357
3431.27,72.6114
3434.14,72.7487
3437.01,72.8913
3439.89,72.908
3442.76,72.9518
3445.63,72.9932
3448.51,73.2227
3451.38,73.3579
3454.26,73.4576
3457.13,73.5485
3460,73.6682
3462.88,73.722
3465.75,73.8201
3468.63,74.0199
3471.5,74.0934
3474.37,74.1798
3477.25,74.3203
3480.12,74.3045
3482.99,74.4729
3485.87,74.5929
3488.74,74.7289
3491.62,74.9034
3494.49,75.0244
3497.36,75.1562
3500.24,75.1776
3503.11,75.1319
3505.98,75.6043
3508.86,75.4773
3511.73,75.8255
3514.61,76.0807
3517.48,76.1398
3520.35,76.2052
3523.23,76.0774
3526.1,76.3029
3528.97,76.5042
3531.85,76.7975
3534.72,76.9478
3537.6,77.1616
3540.47,77.3667
3543.34,77.257
3546.22,77.3183
3549.09,77.8341
3551.96,77.6598
3554.84,78.08
3557.71,78.2377
3560.59,78.3557
3563.46,78.3762
3566.33,78.0043
3569.21,79.0396
3572.08,78.9808
3574.95,79.0599
3577.83,79.2925
3580.7,79.4555
3583.58,79.4878
3586.45,78.9524
3589.32,80.0462
3592.2,79.848
3595.07,79.8272
3597.94,80.1311
3600.82,80.2753
3603.69,80.6139
3606.57,80.2769
3609.44,80.8013
3612.31,80.6095
3615.19,81.0227
3618.06,80.7411
3620.93,81.8994
3623.81,81.6535
3626.68,81.3029
3629.56,82.1112
3632.43,82.2765
3635.3,82.4777
3638.18,82.3449
3641.05,82.5599
3643.92,82.8067
3646.8,82.1002
3649.67,82.839
3652.55,84.1205
3655.42,82.8256
3658.29,83.6537
3661.17,83.5705
3664.04,83.8066
3666.91,83.6012
3669.79,83.1856
3672.66,84.0452
3675.54,83.012
3678.41,84.0948
3681.28,84.3171
3684.16,84.0679
3687.03,83.6014
3689.9,84.2579
3692.78,84.488
3695.65,83.9305
3698.53,83.8846
3701.4,83.6899
3704.27,84.3862
3707.15,83.916
3710.02,83.5252
3712.89,84.3247
3715.77,84.1431
3718.64,83.8484
3721.52,83.4054
3724.39,83.6301
3727.26,83.8756
3730.14,83.3856
3733.01,83.3543
3735.88,83.0042
3738.76,84.1055
3741.63,83.6407
3744.51,83.4927
3747.38,84.0794
3750.25,83.9563
3753.13,84.7546
3756,83.9069
3758.87,83.9422
3761.75,84.4992
3764.62,83.6526
3767.5,84.1152
3770.37,84.0073
3773.24,84.175
3776.12,84.0394
3778.99,83.6955
3781.86,84.1773
3784.74,83.7693
3787.61,83.9391
3790.49,83.8934
3793.36,83.9434
3796.23,83.7141
3799.11,83.8372
3801.98,83.9646
3804.85,83.9283
3807.73,84.3587
3810.6,84.0836
3813.48,84.082
3816.35,84.0553
3819.22,83.8048
3822.1,84.5745
3824.97,83.8334
3827.84,84.1376
3830.72,83.8237
3833.59,84.194
3836.47,83.6474
3839.34,83.9241
3842.21,83.9914
3845.09,84.1747
3847.96,83.85
3850.83,83.3047
3853.71,84.0101
3856.58,84.6144
3859.46,84.0193
3862.33,83.6464
3865.2,83.7625
3868.08,83.7504
3870.95,84.3611
3873.82,83.6133
3876.7,84.3916
3879.57,83.4722
3882.45,84.0566
3885.32,83.4903
3888.19,84.3127
3891.07,83.5786
3893.94,84.0069
3896.81,83.7764
3899.69,83.615
3902.56,83.6717
3905.44,84.1565
3908.31,84.1349
3911.18,83.9882
3914.06,83.9227
3916.93,83.8328
3919.8,83.9711
3922.68,83.9809
3925.55,83.8366
3928.43,83.8281
3931.3,83.7466
3934.17,84.0487
3937.05,83.9944
3939.92,83.9663
3942.79,83.7781
3945.67,83.9895
3948.54,83.7513
3951.42,83.9578
3954.29,84.0345
3957.16,84.0061
3960.04,83.9659
3962.91,83.9758
3965.79,84.1188
3968.66,84.0635
3971.53,84.0045
3974.41,83.952
3977.28,84.0611
3980.15,84.1375
3983.03,84.1025
3985.9,84.0925
3988.78,84.1259
3991.65,84.1385
3994.52,84.0897
3997.4,84.1667
4000.27,84.1487